# The bandpass is included by SGJY in MPE on 2019-05-20.
# Wavelength RSR
1.14800 0.0044
1.14850 0.0046
1.14900 0.0044
1.14950 0.0049
1.15000 0.0046
1.15050 0.0062
1.15100 0.0062
1.15150 0.0069
1.15200 0.0064
1.15250 0.007
1.15300 0.0087
1.15350 0.0095
1.15400 0.0091
1.15450 0.0104
1.15500 0.0117
1.15550 0.0128
1.15600 0.0138
1.15650 0.0149
1.15700 0.0172
1.15750 0.0182
1.15800 0.0187
1.15850 0.0216
1.15900 0.0211
1.15950 0.0255
1.16000 0.0277
1.16050 0.0283
1.16100 0.0332
1.16150 0.0352
1.16200 0.0392
1.16250 0.041
1.16300 0.0466
1.16350 0.0496
1.16400 0.0535
1.16450 0.0586
1.16500 0.0617
1.16550 0.067
1.16600 0.0708
1.16650 0.0775
1.16700 0.0824
1.16750 0.0893
1.16800 0.0947
1.16850 0.0989
1.16900 0.1063
1.16950 0.1103
1.17000 0.1175
1.17050 0.1212
1.17100 0.1261
1.17150 0.1332
1.17200 0.1368
1.17250 0.1399
1.17300 0.1445
1.17350 0.1485
1.17400 0.1445
1.17450 0.1552
1.17500 0.1591
1.17550 0.1572
1.17600 0.164
1.17650 0.1656
1.17700 0.1673
1.17750 0.1613
1.17800 0.1672
1.17850 0.1671
1.17900 0.1718
1.17950 0.166
1.18000 0.1716
1.18050 0.1734
1.18100 0.1729
1.18150 0.1713
1.18200 0.1607
1.18250 0.1729
1.18300 0.1748
1.18350 0.1751
1.18400 0.1747
1.18450 0.1708
1.18500 0.1688
1.18550 0.1762
1.18600 0.1758
1.18650 0.1751
1.18700 0.1755
1.18750 0.1719
1.18800 0.1724
1.18850 0.1718
1.18900 0.1764
1.18950 0.1772
1.19000 0.1777
1.19050 0.1769
1.19100 0.1761
1.19150 0.1783
1.19200 0.1768
1.19250 0.1784
1.19300 0.1785
1.19350 0.1724
1.19400 0.1786
1.19450 0.1772
1.19500 0.1767
1.19550 0.1764
1.19600 0.1777
1.19650 0.1768
1.19700 0.1777
1.19750 0.1737
1.19800 0.1779
1.19850 0.1759
1.19900 0.1727
1.19950 0.1768
1.20000 0.1764
1.20050 0.1763
1.20100 0.1755
1.20150 0.1758
1.20200 0.1736
1.20250 0.1768
1.20300 0.1767
1.20350 0.1729
1.20400 0.1683
1.20450 0.1755
1.20500 0.1707
1.20550 0.1777
1.20600 0.1781
1.20650 0.1757
1.20700 0.1765
1.20750 0.1765
1.20800 0.1774
1.20850 0.1791
1.20900 0.1778
1.20950 0.1808
1.21000 0.1787
1.21050 0.1827
1.21100 0.1829
1.21150 0.1805
1.21200 0.1837
1.21250 0.1836
1.21300 0.1859
1.21350 0.1872
1.21400 0.1859
1.21450 0.1872
1.21500 0.1873
1.21550 0.1882
1.21600 0.1908
1.21650 0.1908
1.21700 0.1906
1.21750 0.1928
1.21800 0.1916
1.21850 0.1921
1.21900 0.1915
1.21950 0.1927
1.22000 0.1939
1.22050 0.1945
1.22100 0.1954
1.22150 0.1938
1.22200 0.1946
1.22250 0.1941
1.22300 0.1952
1.22350 0.1947
1.22400 0.1953
1.22450 0.1951
1.22500 0.1954
1.22550 0.1947
1.22600 0.1949
1.22650 0.1949
1.22700 0.1929
1.22750 0.1941
1.22800 0.194
1.22850 0.1939
1.22900 0.1932
1.22950 0.1925
1.23000 0.1926
1.23050 0.1925
1.23100 0.1922
1.23150 0.1919
1.23200 0.1916
1.23250 0.1913
1.23300 0.1909
1.23350 0.1906
1.23400 0.1909
1.23450 0.1907
1.23500 0.1906
1.23550 0.1906
1.23600 0.1907
1.23650 0.1907
1.23700 0.1908
1.23750 0.191
1.23800 0.1912
1.23850 0.1915
1.23900 0.1918
1.23950 0.1921
1.24000 0.1925
1.24050 0.1928
1.24100 0.1933
1.24150 0.1938
1.24200 0.1943
1.24250 0.1949
1.24300 0.1954
1.24350 0.196
1.24400 0.1966
1.24450 0.1972
1.24500 0.1978
1.24550 0.1984
1.24600 0.199
1.24650 0.1995
1.24700 0.2002
1.24750 0.2008
1.24800 0.201
1.24850 0.2018
1.24900 0.2023
1.24950 0.2021
1.25000 0.2032
1.25050 0.2036
1.25100 0.2026
1.25150 0.2042
1.25200 0.2045
1.25250 0.2029
1.25300 0.2048
1.25350 0.205
1.25400 0.2035
1.25450 0.2047
1.25500 0.2051
1.25550 0.2044
1.25600 0.2027
1.25650 0.2049
1.25700 0.2047
1.25750 0.1968
1.25800 0.2043
1.25850 0.2038
1.25900 0.1958
1.25950 0.2026
1.26000 0.2018
1.26050 0.199
1.26100 0.1949
1.26150 0.1975
1.26200 0.1961
1.26250 0.1844
1.26300 0.1946
1.26350 0.1907
1.26400 0.1889
1.26450 0.1883
1.26500 0.1881
1.26550 0.1948
1.26600 0.1765
1.26650 0.1895
1.26700 0.1918
1.26750 0.1916
1.26800 0.1989
1.26850 0.1504
1.26900 0.1478
1.26950 0.1806
1.27000 0.1927
1.27050 0.1973
1.27100 0.1947
1.27150 0.1994
1.27200 0.1942
1.27250 0.1995
1.27300 0.1948
1.27350 0.2037
1.27400 0.1962
1.27450 0.2017
1.27500 0.1982
1.27550 0.2065
1.27600 0.2008
1.27650 0.2021
1.27700 0.2052
1.27750 0.2054
1.27800 0.2091
1.27850 0.2032
1.27900 0.2104
1.27950 0.209
1.28000 0.2108
1.28050 0.208
1.28100 0.2111
1.28150 0.2124
1.28200 0.2123
1.28250 0.2101
1.28300 0.2132
1.28350 0.2132
1.28400 0.2134
1.28450 0.2113
1.28500 0.2136
1.28550 0.2137
1.28600 0.2136
1.28650 0.2128
1.28700 0.2132
1.28750 0.2132
1.28800 0.2129
1.28850 0.2125
1.28900 0.2113
1.28950 0.2119
1.29000 0.2115
1.29050 0.2113
1.29100 0.2105
1.29150 0.21
1.29200 0.2092
1.29250 0.2094
1.29300 0.209
1.29350 0.2087
1.29400 0.2078
1.29450 0.2077
1.29500 0.207
1.29550 0.2058
1.29600 0.2059
1.29650 0.2057
1.29700 0.205
1.29750 0.2034
1.29800 0.2043
1.29850 0.2045
1.29900 0.2044
1.29950 0.2017
1.30000 0.2032
1.30050 0.2008
1.30100 0.2007
1.30150 0.2034
1.30200 0.2034
1.30250 0.2028
1.30300 0.2018
1.30350 0.1973
1.30400 0.2001
1.30450 0.1994
1.30500 0.2038
1.30550 0.2023
1.30600 0.2043
1.30650 0.1988
1.30700 0.2024
1.30750 0.205
1.30800 0.1978
1.30850 0.2057
1.30900 0.2057
1.30950 0.2012
1.31000 0.2012
1.31050 0.1978
1.31100 0.2059
1.31150 0.2075
1.31200 0.206
1.31250 0.2041
1.31300 0.2006
1.31350 0.198
1.31400 0.2023
1.31450 0.2024
1.31500 0.2007
1.31550 0.1986
1.31600 0.2024
1.31650 0.2021
1.31700 0.1862
1.31750 0.1989
1.31800 0.1956
1.31850 0.1881
1.31900 0.1876
1.31950 0.183
1.32000 0.1716
1.32050 0.1757
1.32100 0.177
1.32150 0.1648
1.32200 0.1687
1.32250 0.1628
1.32300 0.1516
1.32350 0.1553
1.32400 0.144
1.32450 0.1449
1.32500 0.1422
1.32550 0.1298
1.32600 0.1305
1.32650 0.1247
1.32700 0.1139
1.32750 0.1143
1.32800 0.1075
1.32850 0.0962
1.32900 0.0929
1.32950 0.0936
1.33000 0.0868
1.33050 0.0847
1.33100 0.0764
1.33150 0.0695
1.33200 0.0658
1.33250 0.0552
1.33300 0.0641
1.33350 0.0588
1.33400 0.0522
1.33450 0.0554
1.33500 0.0488
1.33550 0.0495
1.33600 0.037
1.33650 0.0444
1.33700 0.0389
1.33750 0.0342
1.33800 0.0328
1.33850 0.0353
1.33900 0.0323
1.33950 0.0306
1.34000 0.0282
1.34050 0.0233
1.34100 0.0265
1.34150 0.0222
1.34200 0.0238
1.34250 0.022
1.34300 0.0209
1.34350 0.02
1.34400 0.0144
1.34450 0.0138
1.34500 0.0162
1.34550 0.0139
1.34600 0.0136
1.34650 0.0106
1.34700 0.0133
1.34750 0.0109
1.34800 0.007
1.34850 0.0063
1.34900 0.0081
1.34950 0.01
1.35000 0.0075
1.35050 0.0042
1.35100 0.0073
1.35150 0.0051
1.35200 0.0055
